{
  "resourceType": "Bundle",
  "type": "collection",
  "entry": [
    {
      "resource": {
        "resourceType": "Patient",
        "id": "patient-1",
        "gender": "male",
        "active": true,
        "name": [
          {
            "use": "official",
            "family": "Doe",
            "given": ["John"]
          }
        ],
        "identifier": [
          {
            "type": {
              "coding": [
                {
                  "system": "http://terminology.hl7.org/CodeSystem/v2-0203",
                  "code": "MR",
                  "display": "Medical Record Number"
                }
              ]
            },
            "system": "http://hospital.org/mrn",
            "value": "12345"
          }
        ]
      }
    },
    {
      "resource": {
        "resourceType": "Patient",
        "id": "patient-2",
        "gender": "female",
        "active": false,
        "name": [
          {
            "family": "Smith",
            "given": ["Jane"]
          }
        ],
        "identifier": [
          {
            "type": {
              "coding": [
                {
                  "system": "http://terminology.hl7.org/CodeSystem/v2-0203",
                  "code": "SS",
                  "display": "Social Security Number"
                }
              ]
            },
            "system": "http://hl7.org/fhir/sid/us-ssn",
            "value": "123-45-6789"
          }
        ]
      }
    },
    {
      "resource": {
        "resourceType": "Patient",
        "id": "patient-3",
        "active": true,
        "name": [
          {
            "family": "Unknown"
          }
        ]
      }
    },
    {
      "resource": {
        "resourceType": "Observation",
        "id": "obs-1",
        "status": "final",
        "code": {
          "coding": [
            {
              "system": "http://loinc.org",
              "code": "8867-4",
              "display": "Heart rate"
            }
          ],
          "text": "Heart Rate Measurement"
        },
        "subject": {
          "reference": "Patient/patient-1"
        }
      }
    },
    {
      "resource": {
        "resourceType": "Observation",
        "id": "obs-2",
        "status": "preliminary",
        "code": {
          "coding": [
            {
              "system": "http://loinc.org",
              "code": "2339-0",
              "display": "Glucose"
            }
          ],
          "text": "Blood Glucose Level"
        },
        "subject": {
          "reference": "Patient/patient-2"
        }
      }
    },
    {
      "resource": {
        "resourceType": "Observation",
        "id": "obs-3",
        "code": {
          "coding": [
            {
              "system": "http://loinc.org",
              "code": "85354-9"
            }
          ]
        }
      }
    },
    {
      "resource": {
        "resourceType": "Condition",
        "id": "condition-1",
        "clinicalStatus": {
          "coding": [
            {
              "system": "http://terminology.hl7.org/CodeSystem/condition-clinical",
              "code": "active",
              "display": "Active"
            }
          ]
        },
        "code": {
          "coding": [
            {
              "system": "http://snomed.info/sct",
              "code": "73211009",
              "display": "Diabetes mellitus"
            }
          ],
          "text": "Type 2 Diabetes"
        },
        "subject": {
          "reference": "Patient/patient-1"
        }
      }
    },
    {
      "resource": {
        "resourceType": "Condition",
        "id": "condition-2",
        "clinicalStatus": {
          "coding": [
            {
              "system": "http://terminology.hl7.org/CodeSystem/condition-clinical",
              "code": "resolved",
              "display": "Resolved"
            }
          ]
        },
        "code": {
          "coding": [
            {
              "system": "http://snomed.info/sct",
              "code": "38341003",
              "display": "Hypertension"
            }
          ]
        },
        "subject": {
          "reference": "Patient/patient-2"
        }
      }
    }
  ]
}